Folder: Optimizing-the-Combination-of-Natural-Pigments-for-Co-Sensitization-of-Panchromatic-TiO2-DSSCs

Note: README.md
# Optimizing-the-Combination-of-Natural-Pigments-for-Co-Sensitization-of-Panchromatic-TiO2-DSSCs
This repository contains the code, raw data and figures for my thesis.

File: UVVIS_Absorbance_Anode_Adsorbed.csv
A,B,K,M,C,P,AB,AK,AM,AC,AP,BK,BM,BC,BP,KM,KC,KP,MC,MP,CP,ABK,ABM,ABC,ABP,AKM,AKC,AKP,AMC,AMP,ACP,BKM,BKC,BKP,BMC,BMP,BCP,KMC,KMP,KCP,MCP,ABKMCP
0.131,-0.086,0.084,0.136,0.058,0.136,-0.186,0.127,-0.341,-0.586,-0.305,-0.363,0.016,-0.062,0.136,0.006,-0.55,-0.477,0.067,-0.187,0.151,0.112,-0.054,0.304,-0.279,0.086,0.078,-0.255,0.07,-0.167,-0.217,-0.272,0.089,-0.021,-0.052,0.062,0.033,0.172,-1.14,0.286,0.075,0.055
0.371,0.579,0.586,0.718,0.149,0.342,0.239,0.334,0.238,-0.069,0.116,0.08,0.577,0.293,0.312,0.805,0.076,0.132,0.836,0.508,0.513,0.387,0.343,0.497,-0.072,0.58,0.259,0.18,0.3,0.145,0.055,0.126,0.364,0.368,0.293,0.262,0.336,0.683,-0.699,0.313,0.592,0.719
0.339,0.576,0.74,0.799,0.241,0.305,0.424,0.321,0.585,0.219,0.334,0.287,0.542,0.387,0.212,1.018,0.352,0.46,0.84,0.58,0.367,0.403,0.381,0.482,0.221,0.611,0.392,0.575,0.535,0.435,0.242,0.487,0.302,0.468,0.339,0.274,0.342,0.818,0.081,0.324,0.489,0.72
0.325,0.628,0.789,0.78,0.224,0.296,0.379,0.339,0.639,0.272,0.291,0.266,0.43,0.343,0.186,0.955,0.336,0.417,0.739,0.47,0.303,0.308,0.322,0.363,0.233,0.569,0.333,0.519,0.567,0.384,0.25,0.466,0.236,0.37,0.28,0.246,0.259,0.715,0.399,0.271,0.385,0.587
0.28,0.575,0.772,0.757,0.184,0.26,0.341,0.32,0.612,0.241,0.245,0.242,0.364,0.303,0.154,0.908,0.273,0.361,0.655,0.399,0.255,0.263,0.277,0.303,0.199,0.516,0.292,0.466,0.515,0.335,0.231,0.409,0.197,0.3,0.245,0.214,0.219,0.647,0.465,0.234,0.318,0.499
0.247,0.524,0.733,0.717,0.15,0.217,0.292,0.298,0.578,0.209,0.21,0.204,0.321,0.267,0.122,0.846,0.235,0.308,0.581,0.333,0.22,0.223,0.252,0.26,0.18,0.503,0.255,0.418,0.468,0.292,0.198,0.361,0.158,0.255,0.215,0.173,0.178,0.564,0.482,0.195,0.263,0.438
0.234,0.497,0.703,0.678,0.14,0.194,0.271,0.289,0.554,0.189,0.19,0.191,0.287,0.244,0.106,0.805,0.21,0.28,0.514,0.281,0.196,0.196,0.226,0.23,0.157,0.469,0.229,0.373,0.435,0.248,0.173,0.324,0.139,0.217,0.186,0.149,0.158,0.497,0.48,0.171,0.222,0.378
0.225,0.473,0.663,0.634,0.124,0.171,0.247,0.275,0.518,0.177,0.169,0.173,0.26,0.231,0.092,0.75,0.186,0.248,0.459,0.242,0.177,0.177,0.208,0.21,0.143,0.445,0.206,0.334,0.407,0.214,0.154,0.291,0.123,0.188,0.168,0.126,0.139,0.446,0.467,0.147,0.19,0.338
0.213,0.453,0.598,0.592,0.108,0.155,0.233,0.256,0.487,0.162,0.15,0.157,0.235,0.219,0.081,0.7,0.16,0.22,0.405,0.211,0.16,0.163,0.193,0.19,0.132,0.418,0.19,0.304,0.378,0.191,0.144,0.264,0.11,0.168,0.152,0.112,0.127,0.394,0.435,0.13,0.168,0.307
0.2,0.436,0.512,0.536,0.09,0.135,0.215,0.234,0.455,0.148,0.133,0.141,0.211,0.209,0.069,0.632,0.133,0.195,0.356,0.183,0.145,0.151,0.177,0.172,0.121,0.381,0.172,0.273,0.343,0.166,0.128,0.237,0.099,0.148,0.138,0.096,0.112,0.343,0.4,0.109,0.143,0.272
0.187,0.418,0.423,0.477,0.076,0.122,0.204,0.214,0.419,0.135,0.12,0.133,0.193,0.198,0.061,0.56,0.115,0.174,0.314,0.162,0.13,0.141,0.164,0.163,0.112,0.342,0.156,0.251,0.312,0.147,0.115,0.213,0.093,0.13,0.126,0.084,0.099,0.299,0.365,0.093,0.127,0.243
0.183,0.402,0.333,0.396,0.07,0.111,0.198,0.196,0.387,0.124,0.117,0.125,0.185,0.195,0.061,0.467,0.099,0.16,0.27,0.148,0.128,0.141,0.155,0.16,0.111,0.312,0.146,0.238,0.287,0.135,0.11,0.205,0.092,0.123,0.12,0.074,0.098,0.252,0.342,0.084,0.109,0.216
0.187,0.392,0.258,0.32,0.06,0.102,0.191,0.181,0.343,0.113,0.108,0.119,0.171,0.185,0.051,0.366,0.084,0.139,0.222,0.124,0.118,0.132,0.149,0.155,0.102,0.258,0.131,0.223,0.25,0.119,0.101,0.188,0.089,0.111,0.111,0.068,0.089,0.209,0.317,0.075,0.096,0.195
0.201,0.386,0.196,0.235,0.055,0.097,0.192,0.178,0.309,0.107,0.105,0.117,0.162,0.186,0.049,0.27,0.075,0.13,0.187,0.113,0.115,0.135,0.146,0.155,0.098,0.22,0.124,0.218,0.224,0.11,0.098,0.179,0.089,0.106,0.107,0.063,0.086,0.173,0.294,0.067,0.088,0.182
0.219,0.382,0.156,0.178,0.051,0.094,0.196,0.185,0.287,0.104,0.103,0.115,0.159,0.186,0.049,0.204,0.07,0.126,0.163,0.107,0.113,0.139,0.146,0.158,0.096,0.196,0.121,0.212,0.208,0.104,0.097,0.173,0.092,0.103,0.105,0.061,0.085,0.147,0.276,0.065,0.082,0.173
0.229,0.376,0.122,0.131,0.046,0.092,0.202,0.188,0.27,0.102,0.102,0.116,0.156,0.188,0.049,0.153,0.066,0.122,0.143,0.101,0.113,0.141,0.147,0.16,0.095,0.18,0.121,0.208,0.192,0.099,0.098,0.166,0.092,0.1,0.102,0.061,0.085,0.124,0.255,0.062,0.079,0.17
0.225,0.371,0.097,0.102,0.041,0.087,0.201,0.184,0.256,0.098,0.1,0.112,0.151,0.186,0.047,0.124,0.063,0.118,0.128,0.095,0.111,0.142,0.146,0.159,0.094,0.167,0.12,0.205,0.181,0.095,0.097,0.159,0.091,0.098,0.099,0.06,0.083,0.11,0.242,0.061,0.075,0.165
0.205,0.362,0.076,0.078,0.038,0.082,0.197,0.169,0.244,0.093,0.1,0.108,0.145,0.181,0.046,0.099,0.059,0.115,0.117,0.091,0.11,0.139,0.141,0.155,0.093,0.156,0.116,0.201,0.172,0.091,0.094,0.15,0.086,0.094,0.095,0.058,0.081,0.096,0.228,0.058,0.072,0.159
0.177,0.352,0.062,0.062,0.034,0.077,0.184,0.148,0.23,0.086,0.097,0.099,0.134,0.175,0.044,0.082,0.055,0.109,0.106,0.084,0.107,0.129,0.132,0.146,0.09,0.143,0.112,0.196,0.165,0.087,0.09,0.139,0.078,0.089,0.086,0.053,0.077,0.086,0.218,0.055,0.067,0.153
0.145,0.34,0.049,0.051,0.032,0.071,0.165,0.121,0.212,0.079,0.094,0.088,0.121,0.165,0.039,0.068,0.053,0.103,0.097,0.078,0.103,0.113,0.117,0.131,0.086,0.128,0.105,0.192,0.159,0.083,0.085,0.124,0.069,0.083,0.077,0.047,0.072,0.077,0.207,0.05,0.06,0.144
0.119,0.33,0.042,0.045,0.03,0.065,0.141,0.099,0.197,0.072,0.089,0.076,0.105,0.155,0.034,0.058,0.05,0.096,0.09,0.072,0.099,0.095,0.101,0.114,0.081,0.113,0.096,0.186,0.153,0.078,0.08,0.108,0.057,0.076,0.068,0.042,0.067,0.07,0.197,0.046,0.055,0.135
0.098,0.319,0.038,0.039,0.028,0.059,0.115,0.082,0.183,0.066,0.084,0.063,0.088,0.143,0.029,0.049,0.049,0.088,0.084,0.064,0.095,0.075,0.082,0.095,0.076,0.1,0.089,0.179,0.149,0.073,0.074,0.092,0.046,0.069,0.058,0.036,0.062,0.064,0.185,0.041,0.049,0.125
0.087,0.315,0.037,0.038,0.031,0.056,0.095,0.072,0.174,0.062,0.079,0.055,0.076,0.137,0.026,0.045,0.049,0.083,0.082,0.06,0.09,0.058,0.067,0.079,0.07,0.089,0.081,0.171,0.143,0.067,0.069,0.079,0.036,0.061,0.05,0.03,0.057,0.06,0.173,0.037,0.044,0.116
0.077,0.308,0.036,0.035,0.03,0.051,0.077,0.063,0.165,0.056,0.072,0.045,0.064,0.131,0.022,0.04,0.047,0.075,0.079,0.053,0.085,0.044,0.055,0.065,0.064,0.077,0.074,0.161,0.136,0.06,0.064,0.068,0.029,0.055,0.044,0.026,0.052,0.055,0.158,0.031,0.039,0.105
0.07,0.308,0.035,0.035,0.031,0.048,0.068,0.058,0.158,0.053,0.065,0.041,0.059,0.128,0.021,0.038,0.047,0.07,0.078,0.049,0.081,0.036,0.048,0.055,0.06,0.07,0.068,0.153,0.131,0.055,0.06,0.061,0.023,0.051,0.039,0.023,0.049,0.052,0.143,0.027,0.035,0.093
0.063,0.302,0.034,0.033,0.032,0.044,0.058,0.051,0.149,0.048,0.058,0.037,0.053,0.126,0.018,0.035,0.045,0.067,0.075,0.045,0.079,0.032,0.044,0.05,0.057,0.063,0.063,0.145,0.129,0.049,0.058,0.056,0.022,0.048,0.037,0.022,0.048,0.051,0.131,0.025,0.032,0.081
0.059,0.3,0.034,0.032,0.035,0.043,0.055,0.049,0.144,0.047,0.055,0.036,0.052,0.127,0.019,0.034,0.048,0.067,0.078,0.045,0.077,0.03,0.041,0.047,0.055,0.058,0.06,0.137,0.126,0.048,0.057,0.052,0.02,0.044,0.036,0.02,0.046,0.049,0.121,0.023,0.03,0.072
0.052,0.295,0.031,0.029,0.038,0.037,0.047,0.041,0.136,0.041,0.05,0.032,0.048,0.124,0.017,0.033,0.051,0.064,0.079,0.041,0.077,0.029,0.04,0.043,0.053,0.052,0.058,0.134,0.124,0.045,0.056,0.048,0.019,0.044,0.035,0.02,0.045,0.051,0.112,0.024,0.028,0.061
0.05,0.291,0.03,0.028,0.035,0.034,0.043,0.036,0.129,0.037,0.047,0.031,0.048,0.125,0.016,0.032,0.049,0.064,0.078,0.04,0.075,0.026,0.038,0.041,0.05,0.048,0.055,0.131,0.119,0.04,0.054,0.046,0.017,0.041,0.034,0.017,0.042,0.049,0.103,0.022,0.026,0.054
0.046,0.285,0.028,0.024,0.031,0.031,0.038,0.032,0.122,0.029,0.046,0.03,0.045,0.122,0.016,0.029,0.042,0.062,0.072,0.038,0.073,0.024,0.037,0.038,0.05,0.045,0.052,0.126,0.116,0.037,0.053,0.042,0.016,0.039,0.033,0.016,0.041,0.043,0.098,0.02,0.025,0.046
0.044,0.279,0.026,0.02,0.025,0.021,0.033,0.021,0.134,0.025,0.043,0.025,0.043,0.142,0.011,0.025,0.042,0.063,0.076,0.032,0.078,0.018,0.033,0.035,0.044,0.042,0.045,0.142,0.128,0.037,0.051,0.039,0.012,0.037,0.031,0.014,0.043,0.037,0.088,0.016,0.022,0.038
0.041,0.275,0.024,0.018,0.023,0.018,0.026,0.017,0.13,0.021,0.042,0.025,0.042,0.142,0.011,0.024,0.042,0.06,0.076,0.033,0.077,0.018,0.032,0.034,0.044,0.041,0.044,0.14,0.124,0.035,0.048,0.039,0.012,0.036,0.031,0.011,0.041,0.035,0.084,0.012,0.019,0.03
0.04,0.267,0.023,0.016,0.02,0.014,0.022,0.015,0.126,0.016,0.04,0.024,0.041,0.141,0.009,0.019,0.041,0.06,0.073,0.029,0.074,0.017,0.03,0.032,0.043,0.039,0.042,0.137,0.123,0.033,0.045,0.037,0.011,0.033,0.029,0.01,0.038,0.032,0.08,0.011,0.016,0.025
0.038,0.265,0.023,0.017,0.019,0.011,0.02,0.012,0.125,0.015,0.039,0.024,0.04,0.138,0.008,0.019,0.04,0.059,0.071,0.028,0.074,0.016,0.032,0.033,0.042,0.038,0.041,0.137,0.122,0.031,0.043,0.035,0.01,0.032,0.028,0.009,0.037,0.031,0.078,0.01,0.015,0.022
0.04,0.261,0.025,0.017,0.018,0.01,0.019,0.012,0.122,0.015,0.039,0.024,0.041,0.139,0.009,0.019,0.042,0.058,0.07,0.028,0.072,0.016,0.03,0.031,0.04,0.036,0.04,0.136,0.119,0.03,0.041,0.035,0.01,0.03,0.028,0.007,0.035,0.029,0.077,0.008,0.014,0.02
0.038,0.255,0.026,0.017,0.016,0.009,0.017,0.011,0.119,0.014,0.037,0.023,0.04,0.135,0.007,0.017,0.04,0.055,0.067,0.024,0.069,0.014,0.029,0.032,0.039,0.037,0.039,0.133,0.119,0.029,0.04,0.034,0.01,0.031,0.028,0.008,0.037,0.027,0.074,0.008,0.011,0.018
0.04,0.252,0.028,0.019,0.017,0.009,0.016,0.012,0.12,0.014,0.037,0.023,0.04,0.134,0.008,0.015,0.04,0.053,0.068,0.024,0.07,0.014,0.028,0.03,0.039,0.035,0.038,0.133,0.115,0.029,0.038,0.034,0.01,0.028,0.027,0.007,0.035,0.025,0.073,0.006,0.011,0.017
0.041,0.25,0.028,0.019,0.018,0.011,0.017,0.014,0.119,0.015,0.036,0.023,0.04,0.132,0.007,0.014,0.039,0.052,0.064,0.024,0.068,0.012,0.029,0.03,0.037,0.034,0.036,0.131,0.115,0.027,0.036,0.033,0.009,0.027,0.027,0.005,0.034,0.024,0.071,0.006,0.009,0.019
0.042,0.249,0.03,0.021,0.019,0.012,0.019,0.016,0.12,0.018,0.036,0.024,0.039,0.133,0.007,0.013,0.04,0.052,0.067,0.023,0.069,0.013,0.028,0.031,0.038,0.034,0.037,0.131,0.114,0.028,0.036,0.033,0.01,0.027,0.027,0.006,0.036,0.025,0.07,0.007,0.007,0.018
0.043,0.249,0.031,0.021,0.02,0.013,0.019,0.017,0.121,0.018,0.036,0.024,0.039,0.132,0.008,0.013,0.04,0.051,0.066,0.023,0.069,0.012,0.029,0.031,0.039,0.035,0.037,0.131,0.114,0.029,0.036,0.032,0.011,0.027,0.027,0.007,0.034,0.025,0.07,0.007,0.007,0.018

File: UVVIS_Absorbance_Bulk_Solution.csv
A,B,K,M,C,P,AB,AK,AM,AC,AP,BK,BM,BC,BP,KM,KC,KP,MC,MP,CP,ABK,ABM,ABC,ABP,AKM,AKC,AKP,AMC,AMP,ACP,BKM,BKC,BKP,BMC,BMP,BCP,KMC,KMP,KCP,MCP,ABKMCP
0.092,0.359,0.147,3.644,0.498,2.21,0.347,0.2856,3.409,0.6256,2.2008,0.1722,3.3939,0.885,2.13,2.355,0.6688,1.8954,3.735,3.372,2.1483,0.495,3.843,0.8262,0.281,3.809,0.712,2.0296,3.67,3.3212,2.1825,3.383,0.4818,2.0377,3.0039,2.967,2.2154,3.5394,2.6944,1.083,2.646,2.5525
0.066,0.283,0.188,2.637,0.442,2.297,0.26,0.3096,2.695,0.53975,2.4528,0.2058,2.7702,0.744,2.355,1.9605,0.646,2.2152,3.1025,3.48,2.343,0.4305,3.111,0.6902,0.307,3.0316,0.666,2.3069,2.98,3.3419,2.3355,2.839,0.451,2.296,2.5194,2.964,2.3332,2.9835,2.7488,1.1856,2.67,2.3175
0.058,0.234,0.232,2.509,0.449,2.438,0.203,0.3582,2.2722,0.52445,2.5488,0.2424,2.2032,0.69,2.44,1.6065,0.6878,2.4024,2.565,3.288,2.4387,0.3855,2.466,0.6358,0.315,2.6429,0.694,2.4426,2.46,3.1556,2.403,2.3392,0.4576,2.4354,2.1114,2.763,2.3826,2.5551,2.5984,1.2654,2.529,2.1
0.058,0.178,0.296,1.65,0.48,1.701,0.151,0.4464,1.505,0.53975,1.6776,0.297,1.377,0.654,1.61,1.074,0.7752,1.9032,1.7475,2.092,1.7193,0.33,1.533,0.6052,0.208,1.8889,0.768,1.7287,1.684,2.0194,1.71,1.598,0.484,1.8368,1.5249,1.767,1.7062,1.8853,1.7472,1.0716,1.701,1.5125
0.057,0.133,0.389,0.926,0.517,0.972,0.109,0.5682,0.91,0.56355,0.9672,0.3792,0.8046,0.633,0.935,0.753,0.893,1.5834,1.2075,1.128,1.1286,0.3105,0.894,0.5882,0.122,1.2883,0.872,1.1918,1.172,1.1017,1.1475,1.1356,0.5346,1.4104,1.1424,0.966,1.1552,1.4807,1.0848,0.9614,1.035,1.1125
0.056,0.112,0.482,0.647,0.575,0.659,0.089,0.6918,0.553,0.6154,0.6744,0.4656,0.5832,0.663,0.65,0.672,1.0336,1.5834,1.035,0.696,0.9075,0.3285,0.642,0.6086,0.086,0.9594,1.002,1.0266,1.018,0.6923,0.9405,1.0064,0.6072,1.3202,1.0353,0.606,0.9462,1.411,0.8192,0.9918,0.756,0.985
0.063,0.115,0.557,0.61,0.672,0.426,0.089,0.7992,0.3794,0.69275,0.4632,0.5376,0.5562,0.756,0.46,0.7065,1.1989,1.6029,1.08,0.476,0.7788,0.366,0.615,0.6834,0.063,0.8229,1.144,0.9204,1.07,0.4807,0.8235,1.0506,0.693,1.2628,1.1016,0.432,0.8398,1.5198,0.704,1.0374,0.633,0.9725
0.071,0.123,0.541,0.577,0.683,0.322,0.094,0.792,0.2982,0.663,0.3648,0.5262,0.5427,0.765,0.38,0.678,1.1875,1.5054,1.0525,0.396,0.6963,0.3615,0.594,0.6868,0.052,0.7241,1.114,0.826,1.038,0.4071,0.747,1.0268,0.6886,1.1808,1.0863,0.375,0.7714,1.479,0.64,0.9956,0.576,0.9125
0.081,0.142,0.466,0.532,0.655,0.277,0.11,0.7014,0.2464,0.6256,0.3216,0.456,0.5319,0.762,0.36,0.6015,1.0982,1.3104,1.005,0.384,0.6534,0.3345,0.582,0.6834,0.05,0.611,1.022,0.7257,0.98,0.3956,0.711,0.9486,0.6424,1.0496,1.0506,0.378,0.7486,1.3583,0.5888,0.8892,0.561,0.825
0.092,0.166,0.311,0.296,0.441,0.264,0.129,0.5088,0.2044,0.4063,0.3,0.3108,0.3861,0.57,0.36,0.372,0.7372,0.9438,0.645,0.376,0.5214,0.249,0.417,0.5202,0.05,0.4459,0.68,0.5546,0.612,0.3772,0.5715,0.6732,0.4664,0.8077,0.7497,0.372,0.6308,0.8891,0.48,0.6498,0.468,0.5925
0.117,0.228,0.148,0.127,0.455,0.276,0.177,0.318,0.1806,0.3978,0.3168,0.159,0.3186,0.645,0.42,0.165,0.5985,0.5772,0.535,0.344,0.5478,0.1935,0.342,0.5848,0.058,0.2886,0.538,0.413,0.496,0.3473,0.603,0.4522,0.3916,0.5863,0.6732,0.366,0.6992,0.6256,0.3616,0.4636,0.459,0.435
0.164,0.307,0.053,0.074,0.29,0.309,0.237,0.234,0.196,0.27285,0.348,0.0696,0.3429,0.555,0.505,0.066,0.342,0.3705,0.34,0.3,0.4851,0.1635,0.378,0.5134,0.068,0.2223,0.322,0.3481,0.322,0.3082,0.531,0.3774,0.2904,0.4961,0.561,0.36,0.6726,0.3519,0.2656,0.3154,0.372,0.325
0.23,0.403,0.016,0.05,0.101,0.367,0.311,0.2538,0.2492,0.10625,0.4056,0.0396,0.4158,0.456,0.62,0.027,0.114,0.3198,0.14,0.304,0.4224,0.162,0.456,0.4284,0.083,0.2405,0.124,0.354,0.138,0.3128,0.459,0.4012,0.2222,0.5289,0.4743,0.399,0.646,0.1377,0.24,0.2356,0.3,0.27
0.291,0.504,0.007,0.04,0.047,0.44,0.385,0.3036,0.3024,0.06035,0.48,0.0378,0.5022,0.495,0.755,0.0135,0.0513,0.351,0.08,0.34,0.4521,0.1875,0.549,0.459,0.099,0.2821,0.07,0.4071,0.086,0.3519,0.486,0.4658,0.231,0.6232,0.5151,0.465,0.7182,0.0782,0.2464,0.2356,0.309,0.28
0.339,0.608,0.005,0.034,0.03,0.542,0.461,0.351,0.3486,0.04335,0.5856,0.0426,0.5994,0.579,0.925,0.0015,0.0304,0.4173,0.06,0.404,0.528,0.2205,0.651,0.527,0.12,0.3224,0.052,0.5015,0.066,0.414,0.558,0.5474,0.264,0.7585,0.5916,0.555,0.8398,0.0561,0.2912,0.2584,0.348,0.315
0.344,0.654,0.004,0.031,0.036,0.649,0.494,0.3558,0.3528,0.051,0.696,0.0456,0.6399,0.63,1.05,-0.006,0.0361,0.4914,0.06,0.468,0.6171,0.2355,0.693,0.5678,0.136,0.325,0.058,0.5959,0.07,0.4807,0.648,0.5814,0.2816,0.861,0.6324,0.624,0.9462,0.0595,0.336,0.2926,0.399,0.355
0.278,0.614,0.004,0.027,0.034,0.771,0.46,0.2886,0.2884,0.04505,0.8112,0.0426,0.5967,0.588,1.125,-0.009,0.0323,0.5694,0.055,0.54,0.7128,0.2205,0.645,0.5304,0.146,0.2639,0.054,0.6962,0.064,0.5543,0.7335,0.544,0.264,0.9225,0.5967,0.663,0.9994,0.0544,0.3776,0.323,0.447,0.39
0.168,0.491,0.003,0.024,0.038,0.882,0.368,0.1746,0.1778,0.0459,0.9144,0.0348,0.4725,0.471,1.13,-0.0105,0.0361,0.6435,0.0575,0.604,0.7986,0.1785,0.516,0.4352,0.146,0.1625,0.056,0.7847,0.066,0.6164,0.8145,0.4386,0.2156,0.9266,0.4896,0.663,1.0032,0.0544,0.4256,0.3534,0.495,0.42
0.068,0.312,0.003,0.022,0.046,0.975,0.236,0.0714,0.0784,0.051,0.996,0.0228,0.297,0.303,1.075,-0.0135,0.0437,0.702,0.0625,0.652,0.8712,0.117,0.333,0.2992,0.14,0.0715,0.062,0.8614,0.07,0.6624,0.8865,0.289,0.1496,0.8856,0.3417,0.63,0.9652,0.0595,0.4576,0.3762,0.531,0.44
0.018,0.154,0.002,0.019,0.059,1.005,0.119,0.0222,0.0294,0.0612,1.008,0.0126,0.1431,0.165,0.98,-0.0135,0.057,0.7098,0.0725,0.652,0.8745,0.0645,0.174,0.1836,0.128,0.0273,0.072,0.8673,0.08,0.6624,0.8955,0.1564,0.0946,0.8036,0.2091,0.573,0.893,0.068,0.4544,0.38,0.534,0.4375
0.002,0.073,0.002,0.017,0.08,0.974,0.057,0.0084,0.0154,0.08245,0.9576,0.0072,0.0648,0.111,0.885,-0.0165,0.0779,0.6708,0.09,0.612,0.8184,0.0375,0.09,0.1394,0.116,0.0143,0.09,0.8201,0.098,0.621,0.8595,0.0884,0.0726,0.7134,0.153,0.513,0.8246,0.0833,0.4192,0.361,0.507,0.4175
-0.004,0.035,0.002,0.015,0.103,0.917,0.026,0.0036,0.0098,0.1037,0.8832,0.0042,0.0297,0.099,0.805,-0.015,0.1026,0.6162,0.1125,0.56,0.7722,0.027,0.048,0.1292,0.106,0.0091,0.112,0.7611,0.118,0.5681,0.8145,0.0578,0.0682,0.6355,0.1377,0.462,0.7676,0.102,0.3808,0.342,0.474,0.395
-0.004,0.023,0.002,0.014,0.098,0.851,0.015,0.0018,0.007,0.09605,0.8112,0.0036,0.0162,0.081,0.735,-0.0165,0.095,0.5655,0.105,0.516,0.7128,0.0225,0.03,0.1122,0.097,0.0078,0.104,0.6962,0.11,0.5198,0.747,0.0408,0.0594,0.574,0.1224,0.42,0.703,0.0969,0.3424,0.3116,0.432,0.3675
-0.004,0.02,0.002,0.013,0.118,0.725,0.011,0.0018,0.007,0.1139,0.6864,0.003,0.0135,0.099,0.63,-0.0165,0.1159,0.4758,0.1225,0.444,0.6237,0.0225,0.024,0.1258,0.083,0.0078,0.122,0.59,0.126,0.4393,0.657,0.0306,0.066,0.4756,0.1326,0.357,0.6232,0.1122,0.288,0.2774,0.381,0.3325
-0.005,0.025,0.002,0.012,0.213,0.566,0.014,0.0018,0.007,0.21165,0.54,0.0024,0.0189,0.198,0.5,-0.0165,0.209,0.3627,0.2075,0.352,0.5544,0.0315,0.027,0.2074,0.067,0.0078,0.212,0.4602,0.212,0.3473,0.5985,0.0238,0.1078,0.3608,0.204,0.285,0.57,0.1887,0.224,0.2546,0.348,0.3075
-0.004,0.035,0.003,0.01,0.412,0.383,0.021,0.0018,0.0056,0.41055,0.3816,0.0024,0.027,0.408,0.36,-0.0165,0.4104,0.2418,0.39,0.24,0.5313,0.051,0.039,0.3842,0.049,0.0078,0.402,0.3245,0.392,0.2484,0.594,0.0272,0.1914,0.246,0.357,0.207,0.5776,0.3519,0.16,0.2546,0.354,0.305
-0.004,0.02,0.003,0.009,0.152,0.246,0.01,0.0012,0.0042,0.153,0.2424,0.0012,0.0135,0.141,0.22,-0.0165,0.1577,0.1404,0.1575,0.16,0.264,0.024,0.018,0.1598,0.033,0.0065,0.16,0.1947,0.146,0.1679,0.333,0.0102,0.0814,0.1353,0.153,0.138,0.3154,0.1428,0.096,0.1482,0.195,0.195
-0.005,0.014,0.003,0.009,0.022,0.167,0.004,0.0006,0.0028,0.02125,0.1608,0.0006,0.0054,0,0.125,-0.018,0.0209,0.0819,0.03,0.112,0.1155,0.0105,-0.006,0.0374,0.023,0.0065,0.05,0.1711,0.042,0.1403,0.225,0.0374,0.044,0.1066,0.0918,0.123,0.1938,0.0442,0.0896,0.1178,0.129,0.1525
-0.004,0.013,0.003,0.008,0.007,0.116,0.003,-0.0006,0,0.0051,0.1104,0.0006,0.0054,-0.015,0.075,-0.018,0.0038,0.0468,0.015,0.08,0.0792,0.0075,-0.012,0.0204,0.017,0.0052,0.032,0.1239,0.024,0.1058,0.1665,0.0306,0.033,0.0615,0.0663,0.096,0.1368,0.0272,0.0608,0.0912,0.096,0.1175
-0.004,0.013,0.003,0.007,0.005,0.085,0.003,-0.0006,-0.0014,0.0034,0.0792,0,0.0054,-0.018,0.05,-0.0165,0.0019,0.0234,0.0125,0.056,0.0528,0.009,-0.015,0.017,0.013,0.0039,0.028,0.0885,0.02,0.0828,0.1395,0.0238,0.0308,0.0328,0.0459,0.075,0.1102,0.0238,0.0448,0.0798,0.075,0.0925
-0.004,0.013,0.004,0.007,0.005,0.058,0.003,-0.0012,-0.0028,0.00255,0.0528,0,0.0027,-0.018,0.025,-0.018,0,0.0039,0.01,0.036,0.0198,0.0075,-0.015,0.017,0.009,0.0039,0.032,0.0767,0.024,0.0736,0.1305,0.0374,0.0352,0.0246,0.051,0.069,0.0988,0.0272,0.0416,0.076,0.072,0.0775
-0.004,0.013,0.004,0.007,0.005,0.04,0.003,-0.0012,-0.0042,0.0017,0.0336,0,0.0027,-0.024,0.005,-0.018,0,-0.0117,0.01,0.016,0.0099,0.0075,-0.015,0.0136,0.007,0.0026,0.03,0.0531,0.02,0.0575,0.108,0.0272,0.0264,0.0041,0.0357,0.054,0.076,0.0238,0.0288,0.0646,0.057,0.06
-0.004,0.013,0.004,0.007,0.005,0.025,0.004,-0.0006,-0.0028,0.0034,0.024,0.0006,0.0081,-0.018,0,-0.015,0.0038,-0.0156,0.0125,0.008,0.0033,0.009,-0.006,0.0204,0.007,0.0039,0.03,0.0354,0.018,0.0483,0.0945,0.0238,0.0198,-0.0082,0.0255,0.045,0.0646,0.0221,0.0192,0.057,0.048,0.0475
-0.003,0.013,0.005,0.007,0.005,0.016,0.005,0,-0.0014,0.00425,0.0192,0.0018,0.0108,-0.012,0,-0.0135,0.0057,-0.0156,0.015,0,-0.0033,0.0105,0,0.0238,0.007,0.0052,0.03,0.0295,0.018,0.0437,0.0855,0.0204,0.0198,-0.0123,0.0204,0.042,0.057,0.0221,0.016,0.0532,0.045,0.045
-0.003,0.013,0.005,0.007,0.006,0.012,0.008,0.0012,0.0028,0.00595,0.0192,0.003,0.0162,-0.006,0.01,-0.009,0.0095,-0.0078,0.0225,0.004,0.0033,0.015,0.021,0.0306,0.009,0.0091,0.03,0.0295,0.018,0.0414,0.0855,0.034,0.022,-0.0123,0.0306,0.042,0.0304,0.0238,0.0192,0.0532,0.045,0.0425
-0.002,0.013,0.006,0.008,0.006,0.01,0.01,0.0018,0.0056,0.00765,0.0216,0.0042,0.0216,0,0.015,-0.0045,0.0133,-0.0078,0.025,0.008,0.0066,0.018,0.021,0.0374,0.01,0.0104,0.028,0.0177,0.016,0.0391,0.081,0.0272,0.0198,-0.0205,0.0255,0.033,0.019,0.0221,0.0128,0.0494,0.042,0.04
-0.001,0.014,0.006,0.009,0.006,0.01,0.01,0.0012,0.0056,0.00765,0.0216,0.0042,0.0216,0,0.015,-0.0045,0.0133,-0.0117,0.025,0.008,0.0066,0.0165,0.021,0.0374,0.01,0.0104,0.026,0.0118,0.016,0.0368,0.0765,0.0238,0.0198,-0.0205,0.0204,0.03,0.0228,0.0204,0.0128,0.0494,0.039,0.0375